Folder: final_proj

File: Acessa_Package_Test_3_2019-04-03_14-18-19.csv
Time (s),Load (lbf),Machine Extension (mm),Extension (mm)
0.0000,,,
0.03343,,,
0.06686,,,
0.1003,,,
0.1337,,,
0.1671,,,
0.2006,,,
0.2340,,,
0.2674,,,
0.3009,,,
0.3343,,,
0.3677,,,
0.4011,,,
0.4346,,,
0.4680,,,
0.5014,,,
0.5349,,,
0.5683,0.00041250,0.000010769,0.000010769
0.6017,0.00039253,0.000025554,0.000025554
0.6352,0.00037257,0.000040340,0.000040340
0.6686,0.00035260,0.000055126,0.000055126
0.7020,0.00033263,0.000069911,0.000069911
0.7354,0.00031267,0.000084697,0.000084697
0.7689,0.00029270,0.000099482,0.000099482
0.8023,0.00027273,0.00011427,0.00011427
0.8357,0.00025277,0.00012905,0.00012905
0.8692,0.0064630,0.0019823,0.0019823
0.9026,0.059617,0.036008,0.036008
0.9360,0.13221,0.077032,0.077032
0.9694,0.21197,0.12300,0.12300
1.003,0.29976,0.17176,0.17176
1.036,0.38786,0.22085,0.22085
1.070,0.46579,0.26803,0.26803
1.103,0.52336,0.31643,0.31643
1.137,0.58093,0.36413,0.36413
1.170,0.63850,0.41568,0.41568
1.203,0.69517,0.46506,0.46506
1.237,0.72941,0.51486,0.51486
1.270,0.76365,0.56569,0.56569
1.304,0.79789,0.61660,0.61660
1.337,0.83213,0.66592,0.66592
1.371,0.85805,0.71505,0.71505
1.404,0.87688,0.76392,0.76392
1.437,0.89571,0.81201,0.81201
1.471,0.91454,0.86141,0.86141
1.504,0.93337,0.91114,0.91114
1.538,0.95221,0.96055,0.96055
1.571,0.97104,1.0111,1.0111
1.605,0.98987,1.0591,1.0591
1.638,1.0087,1.1113,1.1113
1.671,1.0275,1.1626,1.1626
1.705,1.0464,1.2125,1.2125
1.738,1.0644,1.2617,1.2617
1.772,1.0789,1.3093,1.3093
1.805,1.0933,1.3592,1.3592
1.839,1.1078,1.4086,1.4086
1.872,1.1223,1.4572,1.4572
1.905,1.1367,1.5068,1.5068
1.939,1.1512,1.5563,1.5563
1.972,1.1657,1.6059,1.6059
2.006,1.1801,1.6554,1.6554
2.039,1.1946,1.7064,1.7064
2.073,1.2090,1.7579,1.7579
2.106,1.2117,1.8079,1.8079
2.139,1.2045,1.8568,1.8568
2.173,1.1972,1.9056,1.9056
2.206,1.1899,1.9545,1.9545
2.240,1.1827,2.0034,2.0034
2.273,1.1754,2.0522,2.0522
2.307,1.1682,2.1011,2.1011
2.340,1.1609,2.1503,2.1503
2.373,1.1536,2.2010,2.2010
2.407,1.1464,2.2517,2.2517
2.440,1.1391,2.3025,2.3025
2.474,1.1385,2.3532,2.3532
2.507,1.1500,2.4039,2.4039
2.541,1.1616,2.4537,2.4537
2.574,1.1731,2.5028,2.5028
2.607,1.1846,2.5519,2.5519
2.641,1.1961,2.6010,2.6010
2.674,1.2076,2.6501,2.6501
2.708,1.2145,2.6992,2.6992
2.741,1.2113,2.7483,2.7483
2.775,1.2080,2.7974,2.7974
2.808,1.2047,2.8468,2.8468
2.841,1.2015,2.8962,2.8962
2.875,1.1982,2.9457,2.9457
2.908,1.1831,2.9952,2.9952
2.942,1.1574,3.0446,3.0446
2.975,1.1552,3.0941,3.0941
3.009,1.1530,3.1436,3.1436
3.042,1.1508,3.1930,3.1930
3.075,1.1486,3.2425,3.2425
3.109,1.1464,3.2920,3.2920
3.142,1.1442,3.3414,3.3414
3.176,1.1420,3.3909,3.3909
3.209,1.1398,3.4403,3.4403
3.243,1.1376,3.4894,3.4894
3.276,1.1354,3.5385,3.5385
3.309,1.1332,3.5877,3.5877
3.343,1.1310,3.6368,3.6368
3.376,1.1289,3.6860,3.6860
3.410,1.1267,3.7351,3.7351
3.443,1.1245,3.7843,3.7843
3.477,1.1223,3.8334,3.8334
3.510,1.1202,3.8826,3.8826
3.543,1.1180,3.9334,3.9334
3.577,1.1158,3.9881,3.9881
3.610,1.1136,4.0376,4.0376
3.644,1.1115,4.0871,4.0871
3.677,1.1093,4.1366,4.1366
3.711,1.1071,4.1861,4.1861
3.744,1.1049,4.2355,4.2355
3.777,1.1034,4.2850,4.2850
3.811,1.1115,4.3345,4.3345
3.844,1.1196,4.3840,4.3840
3.878,1.1277,4.4335,4.4335
3.911,1.1358,4.4830,4.4830
3.945,1.1439,4.5325,4.5325
3.978,1.1520,4.5820,4.5820
4.011,1.1601,4.6315,4.6315
4.045,1.1671,4.6810,4.6810
4.078,1.1680,4.7305,4.7305
4.112,1.1689,4.7800,4.7800
4.145,1.1698,4.8294,4.8294
4.179,1.1707,4.8789,4.8789
4.212,1.1716,4.9284,4.9284
4.245,1.1684,4.9779,4.9779
4.279,1.1432,5.0274,5.0274
4.312,1.1179,5.0769,5.0769
4.346,1.0927,5.1264,5.1264
4.379,1.0674,5.1759,5.1759
4.413,1.0422,5.2254,5.2254
4.446,1.0169,5.2749,5.2749
4.479,0.99974,5.3244,5.3244
4.513,1.0052,5.3739,5.3739
4.546,1.0106,5.4234,5.4234
4.580,1.0160,5.4728,5.4728
4.613,1.0214,5.5223,5.5223
4.647,1.0268,5.5718,5.5718
4.680,1.0323,5.6213,5.6213
4.713,1.0377,5.6708,5.6708
4.747,1.0415,5.7203,5.7203
4.780,1.0441,5.7695,5.7695
4.814,1.0467,5.8185,5.8185
4.847,1.0493,5.8676,5.8676
4.881,1.0519,5.9166,5.9166
4.914,1.0545,5.9657,5.9657
4.947,1.0546,6.0147,6.0147
4.981,1.0540,6.0637,6.0637
5.014,1.0534,6.1128,6.1128
5.048,1.0529,6.1618,6.1618
5.081,1.0523,6.2109,6.2109
5.115,1.0517,6.2606,6.2606
5.148,1.0511,6.3106,6.3106
5.181,1.0510,6.3606,6.3606
5.215,1.0587,6.4106,6.4106
5.248,1.0664,6.4606,6.4606
5.282,1.0741,6.5106,6.5106
5.315,1.0788,6.5606,6.5606
5.349,1.0778,6.6106,6.6106
5.382,1.0768,6.6606,6.6606
5.415,1.0757,6.7105,6.7105
5.449,1.0747,6.7605,6.7605
5.482,1.0737,6.8104,6.8104
5.516,1.0727,6.8604,6.8604
5.549,1.0716,6.9104,6.9104
5.583,1.0709,6.9603,6.9603
5.616,1.0719,7.0103,7.0103
5.649,1.0728,7.0603,7.0603
5.683,1.0738,7.1102,7.1102
5.716,1.0748,7.1598,7.1598
5.750,1.0758,7.2067,7.2067
5.783,1.0767,7.2536,7.2536
5.817,1.0777,7.3025,7.3025
5.850,1.0787,7.3518,7.3518
5.883,1.0740,7.4012,7.4012
5.917,1.0627,7.4506,7.4506
5.950,1.0514,7.5000,7.5000
5.984,1.0401,7.5494,7.5494
6.017,1.0279,7.5988,7.5988
6.051,1.0149,7.6482,7.6482
6.084,1.0020,7.6976,7.6976
6.118,0.98906,7.7470,7.7470
6.151,0.97611,7.7964,7.7964
6.184,0.96997,7.8459,7.8459
6.218,0.97391,7.8958,7.8958
6.251,0.97786,7.9457,7.9457
6.285,0.98180,7.9956,7.9956
6.318,0.98575,8.0455,8.0455
6.352,0.98961,8.0954,8.0954
6.385,0.99280,8.1453,8.1453
6.418,0.99600,8.1952,8.1952
6.452,0.99919,8.2451,8.2451
6.485,1.0024,8.2950,8.2950
6.519,1.0056,8.3449,8.3449
6.552,1.0088,8.3947,8.3947
6.586,1.0120,8.4446,8.4446
6.619,1.0152,8.4945,8.4945
6.652,1.0184,8.5444,8.5444
6.686,1.0223,8.5942,8.5942
6.719,1.0278,8.6441,8.6441
6.753,1.0333,8.6940,8.6940
6.786,1.0388,8.7439,8.7439
6.820,1.0442,8.7937,8.7937
6.853,1.0355,8.8433,8.8433
6.886,1.0260,8.8928,8.8928
6.920,1.0164,8.9424,8.9424
6.953,1.0069,8.9920,8.9920
6.987,0.99733,9.0416,9.0416
7.020,1.0016,9.0911,9.0911
7.054,1.0113,9.1407,9.1407
7.087,1.0209,9.1898,9.1898
7.120,1.0306,9.2390,9.2390
7.154,1.0403,9.2881,9.2881
7.187,1.0499,9.3373,9.3373
7.221,1.0497,9.3864,9.3864
7.254,1.0473,9.4356,9.4356
7.288,1.0449,9.4847,9.4847
7.321,1.0425,9.5338,9.5338
7.354,1.0400,9.5830,9.5830
7.388,1.0367,9.6321,9.6321
7.421,1.0313,9.6813,9.6813
7.455,1.0259,9.7308,9.7308
7.488,1.0205,9.7805,9.7805
7.522,1.0152,9.8303,9.8303
7.555,1.0118,9.8801,9.8801
7.588,1.0193,9.9298,9.9298
7.622,1.0268,9.9795,9.9795
7.655,1.0343,10.029,10.029
7.689,1.0418,10.079,10.079
7.722,1.0494,10.129,10.129
7.756,1.0569,10.178,10.178
7.789,1.0571,10.228,10.228
7.822,1.0571,10.278,10.278
7.856,1.0571,10.328,10.328
7.889,1.0571,10.377,10.377
7.923,1.0571,10.427,10.427
7.956,1.0338,10.477,10.477
7.990,1.0090,10.526,10.526
8.023,0.98423,10.576,10.576
8.056,0.95942,10.626,10.626
8.090,0.93766,10.675,10.675
8.123,0.92449,10.725,10.725
8.157,0.91132,10.774,10.774
8.190,0.89815,10.824,10.824
8.224,0.88498,10.873,10.873
8.257,0.87401,10.922,10.922
8.290,0.86479,10.971,10.971
8.324,0.85557,11.020,11.020
8.341,0.85096,11.045,11.045